"4,046 
 1,399 
 604 
 900 
 -   
 394 
 533 
 217 
 15,374(a) 
 5,149 
 1,889 
 4,764 
 1 
 1,232 
 1,740 
 598(a)
 14,091 
 4,641 
 4,290 
 3,412 
 1,640 
 108 
 1,674 
 4,959 
 2,167 
413
 160,024 
 978 
 475,521 
 2,937 
 38,750 
 237 
 43,162 
 266 
 12,475 
 76.25 
 1,093 
 101,467 
 622 
 5,273 
 1,179 
 189 
 1,987 
 101 
 210 
 949 
 499 
 137 
 435 
125.00
149.00
101.00
121.00
70.00
-
92.00
-
96.00
 n.a. 
138.64
138.64",""
"",""
